onset,duration,trial_type,stim_file,response_logged,response,response_time
	20.009970930812415,503.11481237458065,Movie,Growth.mp4,,,
	558.199345115514,181.8656430647825,FreeResp,,,,
	746.0903402882977,15.1245644587907,the_mother_FreeResp,GrowthCh.txt,,,
	767.2322406452149,15.12465219607111,the_father_FreeResp,GrowthCh.txt,,,
	809.5152153040399,15.124660142115317,the_older_brother_FreeResp,GrowthCh.txt,,,
	788.3732752170181,15.124656169093214,the_younger_brother_FreeResp,GrowthCh.txt,,,
	839.6887087055366,11.809512710315175,Question1,Growth.txt,1.0,A,3.7431386117241345
	851.4984101338196,11.59135108825285,Question2,Growth.txt,1.0,C,7.557316297956277
	863.0899582171696,12.01637774053961,Question3,Growth.txt,1.0,A,4.957656983518973
	875.1065170607762,11.524325747101102,Question4,Growth.txt,1.0,B,4.464188280981034
	901.7822009150987,10.024181725515518,the_mother_Rating,GrowthCh.txt,1.0,6,7.233259722299408
	911.8083254424855,10.014771651243791,the_father_Rating,GrowthCh.txt,1.0,3,3.8581585760693997
	921.8240814069868,10.023933412332553,the_older_brother_Rating,GrowthCh.txt,1.0,5,6.033231911191251
	931.8492351955501,10.015455671178643,the_younger_brother_Rating,GrowthCh.txt,1.0,6,2.1248885901877657
	941.8667502102326,10.022881226846948,the_mother_ID,GrowthCh.txt,1.0,5,3.1413630073075183
	951.890768049052,10.023685761378147,the_father_ID,GrowthCh.txt,1.0,2,2.2581135486252606
	961.9155242055422,10.015612274000887,the_older_brother_ID,GrowthCh.txt,1.0,5,9.358215522544924
	971.9320307378657,10.04097299015848,the_younger_brother_ID,GrowthCh.txt,1.0,7,1.7915709281223826
	1007.2329571113805,10.014737218501978,happy_Rating,Growth.txt,1.0,3,3.8414341903990135
	1017.2496546792099,10.031334136787336,surprised_Rating,Growth.txt,1.0,5,2.866357544437051
	1037.298416093341,10.024012541456614,angry_Rating,Growth.txt,1.0,5,4.8915676173055544
	1027.2832471411093,10.014227679930627,tense_Rating,Growth.txt,1.0,6,1.4664300518343225
	1047.3233725557802,10.015720869530924,sad_Rating,Growth.txt,1.0,5,1.7166224117390811
	997.19873757608,10.032255875063129,frustrated_Rating,Growth.txt,1.0,4,8.249781484424602
	1057.3402525510173,20.115452691388782,Arousal_Rating,Growth.txt,1.0,5,8.391572914668359
	1077.4567445155699,20.065730802132748,Valence_Rating,Growth.txt,1.0,5,4.483201451483183
	1097.5246416013688,10.014465729473159,Engagement_Rating,Growth.txt,1.0,5,4.308196319674607
