,onset,duration,trial_type,stim_file,response_logged,response,response_time
	0,20.00713817466749,478.13957349734847,Movie,Defeat.mp4,,,
	1,533.2214655109565,181.84840748517308,FreeResp,,,,
	2,763.3702467901167,15.124633986444678,the_brother_FreeResp,DefeatCh.txt,,,
	3,721.0872671650723,15.124580019735731,the_mother_FreeResp,DefeatCh.txt,,,
	4,742.2292655228521,15.12459988478804,the_sister_FreeResp,DefeatCh.txt,,,
	5,793.5412073977059,11.778937749564648,Question1,Defeat.txt,1.0,B,3.710061978956219
	6,805.3203302233596,11.658480389858596,Question2,Defeat.txt,1.0,C,2.5779587336583063
	7,816.9790390612907,11.899203411478084,Question3,Defeat.txt,1.0,C,4.8441166343400255
	8,828.8783980823355,11.56641713960562,Question4,Defeat.txt,1.0,B,5.51268780749524
	9,855.5962173633743,10.032299247104676,the_brother_Rating,DefeatCh.txt,1.0,2,2.508182414167095
	10,865.629494302033,10.015572212752886,the_mother_Rating,DefeatCh.txt,1.0,4,1.88335176371038
	11,875.6461604168871,10.015541753033176,the_sister_Rating,DefeatCh.txt,1.0,7,1.7999509995570406
	12,885.6628116329666,10.015680477314165,the_brother_ID,DefeatCh.txt,1.0,1,2.7581638733972795
	13,895.6797604936874,10.015246094902976,the_mother_ID,DefeatCh.txt,1.0,2,4.366448592569213
	14,905.6961925320792,10.01544838724658,the_sister_ID,DefeatCh.txt,1.0,5,1.7248293260927312
	15,950.9967672941856,10.02326429123059,happy_Rating,Defeat.txt,1.0,4,1.741531860199757
	16,971.05556320725,10.0307832127437,surprised_Rating,Defeat.txt,1.0,5,2.499814261798747
	17,961.022235281649,10.03092756541446,angry_Rating,Defeat.txt,1.0,5,3.141180248814635
	18,981.087540640554,10.023965196451172,tense_Rating,Defeat.txt,1.0,4,4.233243499184027
	19,940.9789999933564,10.015843039611354,sad_Rating,Defeat.txt,1.0,4,4.474897529406007
	20,930.9457406021538,10.032405194069725,frustrated_Rating,Defeat.txt,1.0,5,3.95840225397842
	21,991.1138270681258,20.114168746978976,Arousal_Rating,Defeat.txt,1.0,4,3.416481038846541
	22,1011.2293075705528,20.073486448731277,Valence_Rating,Defeat.txt,1.0,4,4.483091200410854
	23,1031.3040177063667,10.015429515508004,Engagement_Rating,Defeat.txt,1.0,4,3.416495937621221
