onset,duration,trial_type,stim_file,response_logged,response,response_time
	20.00713817466749,478.13957349734847,Movie,Defeat.mp4,,,
	533.2214655109565,181.84840748517308,FreeResp,,,,
	763.3702467901167,15.124633986444678,the_brother_FreeResp,DefeatCh.txt,,,
	721.0872671650723,15.124580019735731,the_mother_FreeResp,DefeatCh.txt,,,
	742.2292655228521,15.12459988478804,the_sister_FreeResp,DefeatCh.txt,,,
	793.5412073977059,11.778937749564648,Question1,Defeat.txt,1.0,B,3.710061978956219
	805.3203302233596,11.658480389858596,Question2,Defeat.txt,1.0,C,2.5779587336583063
	816.9790390612907,11.899203411478084,Question3,Defeat.txt,1.0,C,4.8441166343400255
	828.8783980823355,11.566417139605619,Question4,Defeat.txt,1.0,B,5.51268780749524
	855.5962173633743,10.032299247104675,the_brother_Rating,DefeatCh.txt,1.0,2,2.508182414167095
	865.629494302033,10.015572212752886,the_mother_Rating,DefeatCh.txt,1.0,4,1.8833517637103796
	875.6461604168871,10.015541753033176,the_sister_Rating,DefeatCh.txt,1.0,7,1.7999509995570406
	885.6628116329666,10.015680477314163,the_brother_ID,DefeatCh.txt,1.0,1,2.7581638733972795
	895.6797604936874,10.015246094902977,the_mother_ID,DefeatCh.txt,1.0,2,4.366448592569213
	905.6961925320793,10.015448387246579,the_sister_ID,DefeatCh.txt,1.0,5,1.7248293260927312
	950.9967672941857,10.02326429123059,happy_Rating,Defeat.txt,1.0,4,1.741531860199757
	971.0555632072501,10.0307832127437,surprised_Rating,Defeat.txt,1.0,5,2.499814261798747
	961.022235281649,10.030927565414459,angry_Rating,Defeat.txt,1.0,5,3.141180248814635
	981.0875406405539,10.023965196451172,tense_Rating,Defeat.txt,1.0,4,4.233243499184027
	940.9789999933564,10.015843039611354,sad_Rating,Defeat.txt,1.0,4,4.474897529406007
	930.9457406021538,10.032405194069725,frustrated_Rating,Defeat.txt,1.0,5,3.95840225397842
	991.1138270681258,20.114168746978976,Arousal_Rating,Defeat.txt,1.0,4,3.416481038846541
	1011.2293075705529,20.073486448731273,Valence_Rating,Defeat.txt,1.0,4,4.483091200410854
	1031.3040177063667,10.015429515508004,Engagement_Rating,Defeat.txt,1.0,4,3.416495937621221
