onset,duration,trial_type,stim_file,response_logged,response,response_time
	20.017400451004505,503.1174392197281,Movie,Growth.mp4,,,
	558.2173309903592,182.3039256883785,FreeResp,,,,
	810.1368595762178,15.148828364908695,the_older_brother_FreeResp,GrowthCh.txt,,,
	746.5544746974483,15.166356281377375,the_mother_FreeResp,GrowthCh.txt,,,
	767.7370524620637,15.143973111175,the_father_FreeResp,GrowthCh.txt,,,
	788.9197358395904,15.191272526979446,the_younger_brother_FreeResp,GrowthCh.txt,,,
	840.3572765421122,11.578185157850385,Question1,Growth.txt,1.0,A,5.513840869069099
	851.9356143260375,11.966130089014769,Question2,Growth.txt,1.0,C,7.920389055274427
	863.9018970420584,12.008531210012734,Question3,Growth.txt,1.0,C,10.97969666030258
	875.9105812106282,11.703834773041308,Question4,Growth.txt,1.0,B,4.613866395317018
	902.785567926243,10.04850056488067,the_older_brother_Rating,GrowthCh.txt,1.0,6,8.88259819149971
	912.8355580102652,10.014916374348104,the_mother_Rating,GrowthCh.txt,1.0,6,5.191427472047508
	922.851957612671,10.033171337097883,the_father_Rating,GrowthCh.txt,1.0,3,5.474741585552692
	932.8859314825386,10.030812739394605,the_younger_brother_Rating,GrowthCh.txt,1.0,7,2.7399162836372852
	942.9175523826852,10.02388924267143,the_older_brother_ID,GrowthCh.txt,1.0,7,3.70830034930259
	952.9422689881176,10.01575333904475,the_mother_ID,GrowthCh.txt,1.0,5,5.783142119646072
	962.9624028168619,10.045310300774872,the_father_ID,GrowthCh.txt,1.0,2,5.799607938155532
	973.0084769139066,10.01563613768667,the_younger_brother_ID,GrowthCh.txt,1.0,6,2.0749066611751914
	1018.3317670049146,10.024738125503063,happy_Rating,Growth.txt,1.0,3,7.5429243901744485
	1038.3821285581216,10.032147975638509,surprised_Rating,Growth.txt,1.0,6,6.058083609677851
	998.28203317523,10.024897704832256,angry_Rating,Growth.txt,1.0,3,7.967217017896473
	1048.4157289722934,10.023497908376157,tense_Rating,Growth.txt,1.0,5,3.7498155077919364
	1008.3096477035433,10.02048212196678,sad_Rating,Growth.txt,1.0,6,7.616301471367478
	1028.357420229353,10.023832628503442,frustrated_Rating,Growth.txt,1.0,5,6.574610511772335
	1058.442004953511,20.121660460717976,Arousal_Rating,Growth.txt,1.0,7,6.532844728790224
	1078.5644136499614,20.09878266043961,Valence_Rating,Growth.txt,1.0,2,17.482743402011693
	1098.6640322813764,10.015543435700238,Engagement_Rating,Growth.txt,1.0,7,2.7747072521597147
