onset,duration,trial_type,stim_file,response_logged,response,response_time
	20.022700673900545,746.9032226772979,Movie,Iteration.mp4,,,
	802.0203582989052,182.56701260991395,FreeResp,,,,
	1011.7932260846719,15.167341568507254,the_man_FreeResp,IterationCh.txt,,,
	990.6225648000836,15.147381886839867,the_woman_FreeResp,IterationCh.txt,,,
	1042.0030512120575,11.324303520843387,Question1,Iteration.txt,1.0,B,10.312671767547727
	1053.3275047112256,11.424091993831098,Question2,Iteration.txt,1.0,A,9.393916578963399
	1064.7517460212111,12.025167534127831,Question3,Iteration.txt,1.0,C,3.922491731122136
	1076.7770665129647,11.766225373372436,Question4,Iteration.txt,1.0,C,5.646795051172376
	1103.7022936074063,10.023750521242619,the_man_Rating,IterationCh.txt,1.0,6,9.674446330405772
	1113.726904598996,10.032408534549177,the_woman_Rating,IterationCh.txt,1.0,7,2.333160842768848
	1123.7602845150977,10.015353397466242,the_man_ID,IterationCh.txt,1.0,5,4.066176141612232
	1133.7772721117362,10.023009900934994,the_woman_ID,IterationCh.txt,1.0,7,1.5997598357498646
	1159.0507790427655,10.023943539708853,happy_Rating,Iteration.txt,1.0,5,8.191347351297736
	1209.2254503406584,10.039874005131423,surprised_Rating,Iteration.txt,1.0,5,7.266407299786806
	1169.076289572753,10.039963064715266,angry_Rating,Iteration.txt,1.0,2,7.724691675044596
	1189.1587984403595,10.040375587530434,tense_Rating,Iteration.txt,1.0,5,5.941381368786097
	1199.1999494116753,10.023959430865943,sad_Rating,Iteration.txt,1.0,3,6.816315443255007
	1179.117741825059,10.040017693303525,frustrated_Rating,Iteration.txt,1.0,5,4.233055194839835
	1219.266866505146,20.122953981161118,Arousal_Rating,Iteration.txt,1.0,6,9.557929161936045
	1239.3908425234258,20.069210469722748,Valence_Rating,Iteration.txt,1.0,6,12.899741063825786
	1259.4608588358387,10.028350514359772,Engagement_Rating,Iteration.txt,1.0,7,8.179127934388816
